HD209458
 
Center: 330.795000   18.884444
 
Targets:
 
331.350748   18.183640
331.309203   20.274438
330.968463   17.787052
330.210381   19.589552
330.970379   19.762751
330.788081   19.495410
331.997814   19.322164
331.870346   17.944018
330.095518   19.694487
330.477564   18.315601
330.911057   18.670112
330.990422   18.936431
331.464001   19.439529
329.959117   18.848511
331.094909   20.082052
329.580179   19.394171
329.838270   18.786587
331.992638   18.710251
330.533775   18.728436
330.435734   18.092282
330.078614   17.999687
331.414283   19.599300
331.740260   19.266888
332.059623   19.345572
329.601521   19.178362
330.199464   18.521532
332.242308   18.488163
329.805736   19.706966
331.906940   18.975713
330.834832   20.158496
331.343308   19.771372
332.066119   19.140701
330.489209   17.461731
330.192822   18.400130
329.942420   20.030485
331.360301   18.775303
331.055739   19.547809
331.723159   19.639527
329.983215   19.458229
330.754114   19.600689
330.121678   17.847371
330.533011   18.663890
331.313139   19.825554
330.420101   17.900048
330.814952   18.918430
332.246344   19.192116
331.858717   19.741686
331.584556   18.960656
329.873489   17.740552
329.515043   19.295198
331.148878   19.514898
329.959124   18.723169
330.759392   19.112477
330.901383   20.226099
331.981417   18.197021
330.819825   20.118965
330.044135   19.076624
329.802829   18.088148
331.175463   19.980894
332.014417   18.555382
330.875806   19.444889
331.177557   17.841589
331.419770   18.767620
332.018767   18.798794
331.433024   19.124662
329.978643   18.209569
331.127334   20.289316
329.948261   19.663906
330.702601   17.793068
329.960831   18.150250
330.755960   18.496245
330.487119   18.218880
330.416349   18.322945
331.815200   18.144994
330.314789   17.535638
329.768854   19.974497
331.010995   17.982914
330.876921   19.385319
331.152894   18.384199
330.935737   20.304297
330.131394   19.956434
331.090460   18.537494
329.964044   18.011889
330.467230   18.555574
329.845026   18.931479
331.394048   20.259352
330.135189   20.055652
330.182063   18.487375
330.559532   18.697777
332.246546   18.357090
330.818994   17.898707
332.113228   18.590385
330.409575   19.870580
329.846132   18.554041
329.394543   19.065418
330.048250   20.197020
330.489224   20.036928
329.476996   19.125129
330.753092   18.614501
330.377700   19.556328
331.335725   19.215087
329.830450   18.701083
330.868033   18.865019
329.682704   19.341407
332.135079   19.646671
330.194420   19.186209
329.776906   19.431781
330.183213   20.063802
329.608660   19.829296
331.376483   19.923597
329.387323   19.100849
329.660847   18.177991
330.828766   19.527693
330.574339   19.986734
330.600384   19.085651
330.996961   20.212617
332.273048   18.580983
331.922684   19.161014
332.238627   19.448735
329.994264   19.355980
330.066605   19.130720
329.993526   18.916964
330.006172   18.557036
331.193183   19.354935
330.729212   18.773335
329.684699   17.888766
329.438694   19.639883
329.617752   19.872975
330.637029   18.627068
330.557602   19.244830
331.578140   17.762810
329.999042   20.115095
330.509392   18.502617
330.988812   17.560887
330.251708   17.828500
330.511909   20.078025
332.091414   19.271377
331.251983   18.268399
330.331852   19.212340
330.363651   19.440463
329.647571   17.924500
330.394308   18.925006
329.416404   18.865577
330.314083   19.867654
329.472021   19.245211
330.825726   19.660093
329.617942   18.713114
331.353244   18.039693
330.455337   17.995055
331.515036   18.327819
330.712971   17.650168
331.910440   18.583800
331.422894   19.335254
331.269591   19.579817
332.200456   18.662026
330.085225   18.340371
329.748663   18.220912
332.064929   18.136603
331.706800   18.962738
330.600397   17.843535
329.806173   19.834675
331.244762   19.668303
331.760603   18.486685
330.118719   18.466626
331.801443   19.552788
331.998624   18.635907
331.059876   18.307982
329.978788   18.797009
330.604883   19.454847
331.739726   18.223634
329.909926   19.841091
330.655558   17.837028
330.695815   17.446120
331.454396   19.273255
331.889933   18.909012
331.249998   17.735209
331.096367   20.222303
329.850780   20.076153
329.805890   19.744998
329.824443   19.450818
330.457410   18.939162
330.077814   20.108932
330.817146   18.373182
329.249145   18.923961
331.553102   18.132137
331.753359   19.100242
329.693062   19.807656
331.676147   18.862975
329.343951   18.895333
331.065763   20.164571
331.765140   18.939965
329.571297   19.773253
329.749822   19.063161
330.976014   17.707593
331.026111   19.856152
331.435295   18.431464
332.212859   18.519300
331.607008   19.704837
331.571013   18.682096
329.897667   19.599562
331.698512   18.895877
330.574309   17.454094
332.140909   18.546057
330.721165   17.508093
330.569393   17.578155
329.719556   18.589001
330.476480   18.175280
329.585081   19.246192
330.688268   18.397894
331.766448   19.946844
331.599381   18.042515
329.255439   19.082774
329.976682   17.953645
331.752919   18.074797
331.166516   20.074718
330.804886   17.847139
329.556581   18.423765
329.474882   19.366063
331.418407   19.018330
331.167922   18.705037
330.719932   20.116518
330.419618   19.151529
 
Guide Stars:
 
330.616045   18.912013
330.605142   19.024255
331.032913   18.919555
331.088079   18.893752
330.679981   18.337692
331.394813   18.690992
330.979026   18.278911
331.298174   18.470159
330.655851   18.242785
331.479767   18.697400
330.826857   19.577189
331.304261   19.484885
331.596857   19.017148
330.145305   19.365431
329.983073   19.177334
331.607012   18.455628
331.628770   19.328350
331.680414   18.523484
331.762154   18.846632
329.927284   19.299534
331.543787   19.493095
331.629667   19.402823
331.789341   18.696935
331.454785   18.155589
331.780609   19.169559
331.614831   19.513034
330.904892   17.886850
331.275020   19.804060
331.781381   19.321995
331.638170   18.217106
330.948542   17.836689
331.870918   18.593713
330.110153   18.039902
331.752609   19.465798
330.330014   17.896823
329.673046   19.141038
329.649867   18.657562
331.919644   19.209953
331.654577   18.114869
331.842658   18.336641
331.401562   19.867431
331.536918   17.988663
329.645491   18.521216
331.887669   19.402065
329.570925   18.843933
329.684591   19.418138
331.914300   18.366712
331.865856   18.214671
331.868263   19.574681
329.460222   18.829063
331.991553   19.497713
331.749837   17.888994
329.371059   18.974345
332.104387   19.456570
332.121956   18.338861
329.345533   18.857725
329.417117   19.401970
331.904819   19.822680
331.920327   17.941900
332.316300   18.833032
 
Reddening Standards:
 
331.730700   18.569230
329.939429   19.622895
331.822243   17.993564
329.482298   18.737314
332.152670   18.479496
330.629609   18.136605
330.911057   18.670112
329.870746   19.221970
329.478370   18.885641
330.479165   19.227852
329.842424   18.023568
331.516961   18.235288
329.654854   19.186894
 
Spectrophotometric Standards:
 
331.103232   18.932680
330.472024   18.748418
331.002670   19.169198
330.811870   19.264479
330.521013   19.177379
330.712939   19.268715
330.771322   19.290519
331.100946   18.579809
330.613453   18.395332
330.257750   18.644503
331.388948   18.823515
330.866692   18.323054
330.938527   18.255250
330.619303   19.583917
330.478978   19.546174
331.463923   18.514832
330.894611   18.139084
331.596356   18.874713
331.551493   19.278421
330.897793   19.699380
331.071208   18.068957
330.796745   19.776473
329.929122   19.244960
330.811770   19.839162
331.500418   19.597097
330.600397   17.843535
331.445726   19.746651
329.718352   19.465636
332.034663   18.914575
330.619180   17.711189
331.952114   19.380946
332.089614   18.815043
329.568458   19.431504
329.951935   17.873022
331.278894   20.101965
329.905492   19.925106
331.703769   17.844209
330.670253   17.515633
330.062836   17.679885
331.243000   17.557976
332.100309   18.165164
331.228469   20.260424
 
Sky fibers:
 
331.350748   18.283640
331.350748   18.083640
330.210381   19.689552
330.210381   19.489552
330.970379   19.862751
330.970379   19.662751
331.997814   19.422164
331.997814   19.222164
331.870346   18.044018
331.870346   17.844018
330.095518   19.794487
330.095518   19.594487
330.911057   18.770112
330.911057   18.570112
330.990422   19.036431
330.990422   18.836431
330.078614   18.099687
330.078614   17.899687
331.414283   19.699300
331.414283   19.499300
331.740260   19.366888
331.740260   19.166888
332.059623   19.445572
332.059623   19.245572
330.834832   20.258496
330.834832   20.058496
331.343308   19.871372
331.343308   19.671372
330.489209   17.561731
331.360301   18.875303
331.360301   18.675303
331.055739   19.647809
331.723159   19.739527
331.723159   19.539527
330.121678   17.947371
330.121678   17.747371
331.313139   19.925554
331.313139   19.725554
330.814952   19.018430
330.814952   18.818430
331.858717   19.841686
331.858717   19.641686
329.873489   17.840552
329.515043   19.395198
329.515043   19.195198
331.148878   19.614898
331.148878   19.414898
330.759392   19.212477
330.759392   19.012477
331.981417   18.297021
331.981417   18.097021
330.819825   20.218965
330.819825   20.018965
329.802829   18.188148
330.875806   19.544889
330.875806   19.344889
331.177557   17.941589
329.978643   18.309569
329.948261   19.763906
329.948261   19.563906
330.702601   17.893068
330.702601   17.693068
329.960831   18.250250
329.960831   18.050250
330.416349   18.422945
330.416349   18.222945
331.815200   18.244994
331.815200   18.044994
330.314789   17.635638
331.010995   17.882914
330.876921   19.485319
330.876921   19.285319
331.152894   18.484199
331.152894   18.284199
330.131394   19.856434
331.090460   18.637494
331.090460   18.437494
330.467230   18.655574
330.467230   18.455574
330.559532   18.797777
330.559532   18.597777
330.818994   17.998707
330.818994   17.798707
332.113228   18.690385
332.113228   18.490385
330.409575   19.970580
330.409575   19.770580
330.489224   20.136928
330.489224   19.936928
331.335725   19.115087
330.868033   18.965019
330.868033   18.765019
330.194420   19.286209
330.194420   19.086209
329.776906   19.531781
329.776906   19.331781
331.376483   20.023597
331.376483   19.823597
329.660847   18.277991
329.660847   18.077991
330.574339   20.086734
330.574339   19.886734
330.600384   19.185651
330.600384   18.985651
331.922684   19.261014
331.922684   19.061014
330.066605   19.230720
330.066605   19.030720
330.006172   18.657036
330.006172   18.457036
331.193183   19.454935
331.193183   19.254935
330.729212   18.873335
330.637029   18.727068
330.637029   18.527068
330.557602   19.344830
330.557602   19.144830
331.578140   17.862810
331.578140   17.662810
330.988812   17.660887
330.988812   17.460887
330.251708   17.928500
330.251708   17.728500
330.511909   20.178025
330.511909   19.978025
332.091414   19.171377
331.251983   18.368399
331.251983   18.168399
330.331852   19.312340
329.647571   18.024500
330.314083   19.967654
330.314083   19.767654
329.617942   18.613114
331.353244   18.139693
331.353244   17.939693
331.910440   18.483800
332.200456   18.762026
332.200456   18.562026
330.085225   18.440371
330.085225   18.240371
329.748663   18.320912
329.748663   18.120912
332.064929   18.236603
332.064929   18.036603
330.600397   17.943535
330.600397   17.743535
330.118719   18.366626
331.801443   19.652788
331.801443   19.452788
331.059876   18.407982
331.059876   18.207982
331.739726   18.323634
331.739726   18.123634
330.655558   17.937028
330.655558   17.737028
331.889933   19.009012
331.889933   18.809012
331.249998   17.835209
331.249998   17.635209
329.824443   19.550818
329.824443   19.350818
330.457410   19.039162
330.457410   18.839162
330.817146   18.473182
330.817146   18.273182
329.749822   19.163161
329.749822   18.963161
331.026111   19.956152
332.212859   18.619300
332.212859   18.419300
331.607008   19.804837
331.607008   19.604837
331.571013   18.782096
331.571013   18.582096
329.897667   19.499562
330.721165   17.608093
330.721165   17.408093
329.719556   18.689001
329.719556   18.489001
330.476480   18.275280
330.476480   18.075280
330.688268   18.297894
331.599381   18.142515
331.599381   17.942515
331.752919   18.174797
331.752919   17.974797
330.804886   17.947139
330.804886   17.747139
329.556581   18.523765
329.556581   18.323765
331.167922   18.805037
331.167922   18.605037
330.719932   20.216518
330.719932   20.016518
